File: Battery/cuhA-eff.csv
Record Index,Status,JumpTo,Cycle,Step,Cur(mA),Voltage(V),CapaCity(mAh),Energy(Wh),Relative Time(min),Absolute Time
1,Rest,1,1,1,0.0000,2.1087,0.0000,0.0000000,0.000,03/07/2023 08:59:43
17,Rest,1,1,1,0.0000,2.1251,0.0000,0.0000000,32.000,03/07/2023 09:31:43
33,CC_DChg,2,1,2,-1.998,1.0156,0.000,0.000000,60.000,03/07/2023 09:59:43
49,CC_DChg,2,1,2,-1.999,0.1974,0.001,0.000001,60.050,03/07/2023 09:59:46
65,CC_DChg,2,1,2,-1.999,0.0037,0.004,0.000001,60.120,03/07/2023 09:59:50
81,CC_DChg,2,1,2,-1.999,-0.0325,0.866,0.000029,86.000,03/07/2023 10:25:43
97,CC_DChg,2,1,2,-1.999,-0.0328,1.932,0.000064,118.000,03/07/2023 10:57:43
113,CC_DChg,2,1,2,-1.999,-0.0328,2.999,0.000099,150.000,03/07/2023 11:29:43
129,CC_DChg,2,1,2,-1.999,-0.0328,4.065,0.000134,182.000,03/07/2023 12:01:43
145,CC_DChg,2,1,2,-1.999,-0.0328,5.131,0.000169,214.000,03/07/2023 12:33:43
161,CC_Chg,3,2,3,1.999,0.0279,0.067,0.000002,242.000,03/07/2023 13:01:43
177,CC_Chg,3,2,3,1.999,0.0282,1.133,0.000032,274.000,03/07/2023 13:33:43
193,CC_Chg,3,2,3,1.999,0.0288,2.199,0.000062,306.000,03/07/2023 14:05:43
209,CC_Chg,3,2,3,1.999,0.0288,3.265,0.000093,338.000,03/07/2023 14:37:43
225,CC_Chg,3,2,3,1.999,0.0297,4.331,0.000124,370.000,03/07/2023 15:09:43
241,CC_Chg,3,2,3,1.999,0.0319,5.397,0.000157,402.000,03/07/2023 15:41:43
257,CC_Chg,3,2,3,1.999,0.1407,5.870,0.000175,416.200,03/07/2023 15:55:55
273,CC_Chg,3,2,3,1.999,0.3059,5.885,0.000178,416.630,03/07/2023 15:56:21
289,CC_Chg,3,2,3,1.999,0.4792,5.893,0.000181,416.870,03/07/2023 15:56:35
305,CC_DChg,4,2,4,-1.999,-0.0316,0.533,0.000017,432.890,03/07/2023 16:12:37
321,CC_DChg,4,2,4,-1.999,-0.0322,1.599,0.000051,464.890,03/07/2023 16:44:37
337,CC_DChg,4,2,4,-1.999,-0.0325,2.665,0.000086,496.890,03/07/2023 17:16:37
353,CC_DChg,4,2,4,-1.999,-0.0328,3.731,0.000121,528.890,03/07/2023 17:48:37
369,CC_DChg,4,2,4,-1.999,-0.0328,4.798,0.000156,560.890,03/07/2023 18:20:37
385,CC_DChg,4,2,4,-1.999,-0.0331,5.864,0.000191,592.890,03/07/2023 18:52:37
401,CC_Chg,5,3,5,1.999,0.0300,0.800,0.000024,620.890,03/07/2023 19:20:37
417,CC_Chg,5,3,5,1.999,0.0300,1.866,0.000056,652.890,03/07/2023 19:52:37
433,CC_Chg,5,3,5,1.999,0.0297,2.932,0.000088,684.890,03/07/2023 20:24:37
449,CC_DChg,6,3,6,-1.999,-0.0331,0.866,0.000028,712.890,03/07/2023 20:52:37
465,CC_DChg,6,3,6,-1.999,-0.0331,1.932,0.000064,744.890,03/07/2023 21:24:37
481,CC_DChg,6,3,6,-1.999,-0.0331,2.999,0.000099,776.890,03/07/2023 21:56:37
497,CC_Chg,8,4,7,1.999,0.0303,0.933,0.000028,804.890,03/07/2023 22:24:37
513,CC_Chg,8,4,7,1.999,0.0303,1.999,0.000060,836.890,03/07/2023 22:56:37
529,CC_DChg,9,4,8,-1.999,-0.0226,0.000,0.000000,866.890,03/07/2023 23:26:37
545,CC_DChg,9,4,8,-1.999,-0.0334,1.000,0.000033,896.890,03/07/2023 23:56:37
561,CC_DChg,9,4,8,-1.999,-0.0337,2.066,0.000069,928.890,03/08/2023 00:28:37
577,CC_Chg,11,5,9,1.999,0.0288,0.006,0.000000,957.090,03/08/2023 00:56:48
593,CC_Chg,11,5,9,1.999,0.0310,1.066,0.000033,988.890,03/08/2023 01:28:37
609,CC_Chg,11,5,9,1.999,0.0306,2.132,0.000065,1020.890,03/08/2023 02:00:37
625,CC_DChg,12,5,10,-1.999,-0.0331,0.067,0.000002,1048.890,03/08/2023 02:28:37
641,CC_DChg,12,5,10,-1.999,-0.0341,1.133,0.000038,1080.890,03/08/2023 03:00:37
657,CC_DChg,12,5,10,-1.999,-0.0337,2.199,0.000074,1112.890,03/08/2023 03:32:37
673,CC_Chg,14,6,11,1.999,0.0310,0.133,0.000004,1140.890,03/08/2023 04:00:37
689,CC_Chg,14,6,11,1.999,0.0316,1.199,0.000038,1172.890,03/08/2023 04:32:37
705,CC_Chg,14,6,11,1.999,0.0313,2.266,0.000071,1204.890,03/08/2023 05:04:37
721,CC_DChg,15,6,12,-1.999,-0.0337,0.200,0.000007,1232.890,03/08/2023 05:32:37
737,CC_DChg,15,6,12,-1.999,-0.0347,1.266,0.000043,1264.890,03/08/2023 06:04:37
753,CC_DChg,15,6,12,-1.999,-0.0347,2.332,0.000080,1296.890,03/08/2023 06:36:37
769,CC_Chg,17,7,13,1.999,0.0319,0.267,0.000008,1324.890,03/08/2023 07:04:37
785,CC_Chg,17,7,13,1.999,0.0319,1.333,0.000042,1356.890,03/08/2023 07:36:37
801,CC_Chg,17,7,13,1.999,0.0316,2.399,0.000076,1388.890,03/08/2023 08:08:37
817,CC_DChg,18,7,14,-1.999,-0.0344,0.333,0.000011,1416.890,03/08/2023 08:36:37
833,CC_DChg,18,7,14,-1.999,-0.0356,1.399,0.000049,1448.890,03/08/2023 09:08:37
849,CC_DChg,18,7,14,-1.999,-0.0356,2.465,0.000087,1480.890,03/08/2023 09:40:37
865,CC_Chg,20,8,15,1.999,0.0328,0.400,0.000013,1508.890,03/08/2023 10:08:37
881,CC_Chg,20,8,15,1.999,0.0325,1.466,0.000048,1540.890,03/08/2023 10:40:37
897,CC_Chg,20,8,15,1.999,0.0322,2.532,0.000082,1572.890,03/08/2023 11:12:37
913,CC_DChg,21,8,16,-1.999,-0.0350,0.466,0.000016,1600.890,03/08/2023 11:40:37
929,CC_DChg,21,8,16,-1.999,-0.0359,1.533,0.000054,1632.890,03/08/2023 12:12:37
945,CC_DChg,21,8,16,-1.999,-0.0362,2.599,0.000093,1664.890,03/08/2023 12:44:37
961,CC_Chg,23,9,17,1.999,0.0337,0.533,0.000018,1692.890,03/08/2023 13:12:37
977,CC_Chg,23,9,17,1.999,0.0331,1.599,0.000053,1724.890,03/08/2023 13:44:37
993,CC_Chg,23,9,17,1.999,0.0328,2.665,0.000089,1756.890,03/08/2023 14:16:37
1009,CC_DChg,24,9,18,-1.999,-0.0356,0.600,0.000021,1784.890,03/08/2023 14:44:37
1025,CC_DChg,24,9,18,-1.999,-0.0365,1.666,0.000060,1816.890,03/08/2023 15:16:37
1041,CC_DChg,24,9,18,-1.999,-0.0372,2.732,0.000099,1848.890,03/08/2023 15:48:37
1057,CC_Chg,26,10,19,1.999,0.0344,0.666,0.000023,1876.890,03/08/2023 16:16:37
1073,CC_Chg,26,10,19,1.999,0.0337,1.732,0.000059,1908.890,03/08/2023 16:48:37
1089,CC_Chg,26,10,19,1.999,0.0334,2.799,0.000095,1940.890,03/08/2023 17:20:37
1105,CC_DChg,27,10,20,-1.999,-0.0365,0.733,0.000027,1968.890,03/08/2023 17:48:37
1121,CC_DChg,27,10,20,-1.999,-0.0375,1.799,0.000066,2000.890,03/08/2023 18:20:37
1137,CC_DChg,27,10,20,-1.999,-0.0378,2.865,0.000106,2032.890,03/08/2023 18:52:37
1153,CC_Chg,29,11,21,1.999,0.0347,0.800,0.000028,2060.890,03/08/2023 19:20:37
1169,CC_Chg,29,11,21,1.999,0.0341,1.866,0.000065,2092.890,03/08/2023 19:52:37
1185,CC_Chg,29,11,21,1.999,0.0337,2.932,0.000101,2124.890,03/08/2023 20:24:37
1201,CC_DChg,30,11,22,-1.999,-0.0365,0.866,0.000032,2152.890,03/08/2023 20:52:37
1217,CC_DChg,30,11,22,-1.999,-0.0375,1.932,0.000071,2184.890,03/08/2023 21:24:37
1233,CC_DChg,30,11,22,-1.999,-0.0378,2.999,0.000112,2216.890,03/08/2023 21:56:37
1249,CC_Chg,32,12,23,1.999,0.0347,0.933,0.000032,2244.890,03/08/2023 22:24:37
1265,CC_Chg,32,12,23,1.999,0.0341,1.999,0.000069,2276.890,03/08/2023 22:56:37
1281,CC_DChg,33,12,24,-1.999,-0.0260,0.000,0.000000,2306.890,03/08/2023 23:26:37
1297,CC_DChg,33,12,24,-1.999,-0.0372,1.000,0.000037,2336.890,03/08/2023 23:56:37
1313,CC_DChg,33,12,24,-1.999,-0.0381,2.066,0.000077,2368.890,03/09/2023 00:28:37
1329,CC_Chg,35,13,25,1.999,0.0331,0.007,0.000000,2397.100,03/09/2023 00:56:50
1345,CC_Chg,35,13,25,1.999,0.0353,1.066,0.000037,2428.890,03/09/2023 01:28:37
1361,CC_Chg,35,13,25,1.999,0.0344,2.132,0.000075,2460.890,03/09/2023 02:00:37
1377,CC_DChg,36,13,26,-1.999,-0.0372,0.067,0.000002,2488.890,03/09/2023 02:28:37
1393,CC_DChg,36,13,26,-1.999,-0.0381,1.133,0.000043,2520.890,03/09/2023 03:00:37
1409,CC_DChg,36,13,26,-1.999,-0.0390,2.199,0.000084,2552.890,03/09/2023 03:32:37
1425,CC_Chg,38,14,27,1.999,0.0359,0.133,0.000005,2580.890,03/09/2023 04:00:37
1441,CC_Chg,38,14,27,1.999,0.0359,1.199,0.000043,2612.890,03/09/2023 04:32:37
1457,CC_Chg,38,14,27,1.999,0.0350,2.266,0.000081,2644.890,03/09/2023 05:04:37
1473,CC_DChg,39,14,28,-1.999,-0.0381,0.200,0.000008,2672.890,03/09/2023 05:32:37
1489,CC_DChg,39,14,28,-1.999,-0.0393,1.266,0.000049,2704.890,03/09/2023 06:04:37
1505,CC_DChg,39,14,28,-1.999,-0.0399,2.332,0.000091,2736.890,03/09/2023 06:36:37
1521,CC_Chg,41,15,29,1.999,0.0375,0.267,0.000010,2764.890,03/09/2023 07:04:37
1537,CC_Chg,41,15,29,1.999,0.0368,1.333,0.000050,2796.890,03/09/2023 07:36:37
1553,CC_Chg,41,15,29,1.999,0.0356,2.399,0.000088,2828.890,03/09/2023 08:08:37
1569,CC_DChg,42,15,30,-1.999,-0.0387,0.333,0.000013,2856.890,03/09/2023 08:36:37
1585,CC_DChg,42,15,30,-1.999,-0.0396,1.399,0.000055,2888.890,03/09/2023 09:08:37
1601,CC_DChg,42,15,30,-1.999,-0.0399,2.465,0.000097,2920.890,03/09/2023 09:40:37
1617,CC_Chg,44,16,31,1.999,0.0378,0.400,0.000015,2948.890,03/09/2023 10:08:37
1633,CC_Chg,44,16,31,1.999,0.0368,1.466,0.000055,2980.890,03/09/2023 10:40:37
1649,CC_Chg,44,16,31,1.999,0.0359,2.532,0.000093,3012.890,03/09/2023 11:12:37
1665,CC_DChg,45,16,32,-1.999,-0.0393,0.466,0.000018,3040.890,03/09/2023 11:40:37
1681,CC_DChg,45,16,32,-1.999,-0.0403,1.533,0.000060,3072.890,03/09/2023 12:12:37
1697,CC_DChg,45,16,32,-1.999,-0.0468,2.599,0.000108,3104.890,03/09/2023 12:44:37
1713,CC_Chg,47,17,33,1.999,0.0412,0.533,0.000022,3132.890,03/09/2023 13:12:37
1729,CC_Chg,47,17,33,1.999,0.0406,1.599,0.000065,3164.890,03/09/2023 13:44:37
1745,CC_Chg,47,17,33,1.999,0.0403,2.665,0.000108,3196.890,03/09/2023 14:16:37
1761,CC_DChg,48,17,34,-1.999,-0.0427,0.600,0.000025,3224.890,03/09/2023 14:44:37
1777,CC_DChg,48,17,34,-1.999,-0.0437,1.666,0.000071,3256.890,03/09/2023 15:16:37
1793,CC_DChg,48,17,34,-1.999,-0.0449,2.732,0.000118,3288.890,03/09/2023 15:48:37
1809,CC_Chg,50,18,35,1.999,0.0415,0.666,0.000028,3316.890,03/09/2023 16:16:37
1825,CC_Chg,50,18,35,1.999,0.0403,1.732,0.000071,3348.890,03/09/2023 16:48:37
1841,CC_Chg,50,18,35,1.999,0.0403,2.799,0.000114,3380.890,03/09/2023 17:20:37
1857,CC_DChg,51,18,36,-1.999,-0.0427,0.733,0.000031,3408.890,03/09/2023 17:48:37
1873,CC_DChg,51,18,36,-1.999,-0.0440,1.799,0.000077,3440.890,03/09/2023 18:20:37
1889,CC_DChg,51,18,36,-1.999,-0.0455,2.865,0.000125,3472.890,03/09/2023 18:52:37
1905,CC_Chg,53,19,37,1.999,0.0418,0.800,0.000034,3500.890,03/09/2023 19:20:37
1921,CC_Chg,53,19,37,1.999,0.0403,1.866,0.000077,3532.890,03/09/2023 19:52:37
1937,CC_Chg,53,19,37,1.999,0.0406,2.932,0.000120,3564.890,03/09/2023 20:24:37
1953,CC_DChg,54,19,38,-1.999,-0.0434,0.866,0.000037,3592.890,03/09/2023 20:52:37
1969,CC_DChg,54,19,38,-1.999,-0.0455,1.932,0.000084,3624.890,03/09/2023 21:24:37
1985,CC_DChg,54,19,38,-1.999,-0.0461,2.999,0.000133,3656.890,03/09/2023 21:56:37
2001,CC_Chg,56,20,39,1.999,0.0421,0.933,0.000040,3684.890,03/09/2023 22:24:37
2017,CC_Chg,56,20,39,1.999,0.0406,1.999,0.000084,3716.890,03/09/2023 22:56:37
2033,CC_DChg,57,20,40,-1.999,-0.0319,0.000,0.000000,3746.890,03/09/2023 23:26:37
2049,CC_DChg,57,20,40,-1.999,-0.0434,1.000,0.000043,3776.890,03/09/2023 23:56:37
2065,CC_DChg,57,20,40,-1.999,-0.0458,2.066,0.000090,3808.890,03/10/2023 00:28:37
2081,CC_Chg,59,21,41,1.999,0.0412,0.007,0.000000,3837.110,03/10/2023 00:56:50
2097,CC_Chg,59,21,41,1.999,0.0424,1.066,0.000046,3868.890,03/10/2023 01:28:37
2113,CC_Chg,59,21,41,1.999,0.0409,2.132,0.000090,3900.890,03/10/2023 02:00:37
2129,CC_DChg,60,21,42,-1.999,-0.0427,0.067,0.000003,3928.890,03/10/2023 02:28:37
2145,CC_DChg,60,21,42,-1.999,-0.0452,1.133,0.000049,3960.890,03/10/2023 03:00:37
2161,CC_DChg,60,21,42,-1.999,-0.0477,2.199,0.000099,3992.890,03/10/2023 03:32:37
2177,CC_Chg,62,22,43,1.999,0.0458,0.133,0.000006,4020.890,03/10/2023 04:00:37
2193,CC_Chg,62,22,43,1.999,0.0434,1.199,0.000054,4052.890,03/10/2023 04:32:37
2209,CC_Chg,62,22,43,1.999,0.0421,2.266,0.000099,4084.890,03/10/2023 05:04:37
2225,CC_DChg,63,22,44,-1.999,-0.0443,0.200,0.000009,4112.890,03/10/2023 05:32:37
2241,CC_DChg,63,22,44,-1.999,-0.0465,1.266,0.000057,4144.890,03/10/2023 06:04:37
2257,CC_DChg,63,22,44,-1.999,-0.0492,2.332,0.000108,4176.890,03/10/2023 06:36:37
2273,CC_Chg,65,23,45,1.999,0.0477,0.267,0.000013,4204.890,03/10/2023 07:04:37
2289,CC_Chg,65,23,45,1.999,0.0440,1.333,0.000062,4236.890,03/10/2023 07:36:37
2305,CC_Chg,65,23,45,1.999,0.0430,2.399,0.000108,4268.890,03/10/2023 08:08:37
2321,CC_DChg,66,23,46,-1.999,-0.0452,0.333,0.000015,4296.890,03/10/2023 08:36:37
2337,CC_DChg,66,23,46,-1.999,-0.0471,1.399,0.000064,4328.890,03/10/2023 09:08:37
2353,CC_DChg,66,23,46,-1.999,-0.0505,2.465,0.000116,4360.890,03/10/2023 09:40:37
2369,CC_Chg,68,24,47,1.999,0.0480,0.400,0.000019,4388.890,03/10/2023 10:08:37
2385,CC_Chg,68,24,47,1.999,0.0446,1.466,0.000068,4420.890,03/10/2023 10:40:37
2401,CC_Chg,68,24,47,1.999,0.0440,2.532,0.000116,4452.890,03/10/2023 11:12:37
2417,CC_DChg,69,24,48,-1.999,-0.0458,0.466,0.000021,4480.890,03/10/2023 11:40:37
2433,CC_DChg,69,24,48,-1.999,-0.0483,1.533,0.000072,4512.890,03/10/2023 12:12:37
2449,CC_DChg,69,24,48,-1.999,-0.0511,2.599,0.000125,4544.890,03/10/2023 12:44:37
2465,CC_Chg,71,25,49,1.999,0.0471,0.533,0.000025,4572.890,03/10/2023 13:12:37
2481,CC_Chg,71,25,49,1.999,0.0455,1.599,0.000075,4604.890,03/10/2023 13:44:37
2497,CC_Chg,71,25,49,1.999,0.0449,2.665,0.000123,4636.890,03/10/2023 14:16:37
2513,CC_DChg,72,25,50,-1.999,-0.0465,0.600,0.000028,4664.890,03/10/2023 14:44:37
2529,CC_DChg,72,25,50,-1.999,-0.0496,1.666,0.000079,4696.890,03/10/2023 15:16:37
2545,CC_DChg,72,25,50,-1.999,-0.0536,2.732,0.000134,4728.890,03/10/2023 15:48:37
2561,CC_Chg,74,26,51,1.999,0.0489,0.666,0.000033,4756.890,03/10/2023 16:16:37
2577,CC_Chg,74,26,51,1.999,0.0458,1.732,0.000084,4788.890,03/10/2023 16:48:37
2593,CC_Chg,74,26,51,1.999,0.0461,2.799,0.000133,4820.890,03/10/2023 17:20:37
2609,CC_DChg,75,26,52,-1.999,-0.0483,0.733,0.000035,4848.890,03/10/2023 17:48:37
2625,CC_DChg,75,26,52,-1.999,-0.0530,1.799,0.000088,4880.890,03/10/2023 18:20:37
2641,CC_DChg,75,26,52,-1.999,-0.0561,2.865,0.000147,4912.890,03/10/2023 18:52:37
2657,CC_Chg,77,27,53,1.999,0.0505,0.800,0.000042,4940.890,03/10/2023 19:20:37
2673,CC_Chg,77,27,53,1.999,0.0471,1.866,0.000093,4972.890,03/10/2023 19:52:37
2689,CC_Chg,77,27,53,1.999,0.0474,2.932,0.000143,5004.890,03/10/2023 20:24:37
2705,CC_DChg,78,27,54,-1.999,-0.0477,0.866,0.000041,5032.890,03/10/2023 20:52:37
2721,CC_DChg,78,27,54,-1.999,-0.0520,1.932,0.000094,5064.890,03/10/2023 21:24:37
2737,CC_DChg,78,27,54,-1.999,-0.0551,2.999,0.000152,5096.890,03/10/2023 21:56:37
2753,CC_Chg,80,28,55,1.999,0.0499,0.933,0.000048,5124.890,03/10/2023 22:24:37
2769,CC_Chg,80,28,55,1.999,0.0465,1.999,0.000099,5156.890,03/10/2023 22:56:37
2785,CC_DChg,81,28,56,-1.999,-0.0375,0.000,0.000000,5186.890,03/10/2023 23:26:38
2801,CC_DChg,81,28,56,-1.999,-0.0483,1.000,0.000047,5216.890,03/10/2023 23:56:37
2817,CC_DChg,81,28,56,-1.999,-0.0520,2.066,0.000101,5248.890,03/11/2023 00:28:37
2833,CC_Chg,83,29,57,1.999,0.0483,0.007,0.000000,5277.110,03/11/2023 00:56:50
2849,CC_Chg,83,29,57,1.999,0.0489,1.066,0.000054,5308.890,03/11/2023 01:28:37
2865,CC_Chg,83,29,57,1.999,0.0458,2.132,0.000104,5340.890,03/11/2023 02:00:37
2881,CC_DChg,84,29,58,-1.999,-0.0477,0.067,0.000003,5368.890,03/11/2023 02:28:38
2897,CC_DChg,84,29,58,-1.999,-0.0489,1.133,0.000054,5400.890,03/11/2023 03:00:38
2913,CC_DChg,84,29,58,-1.999,-0.0542,2.199,0.000109,5432.890,03/11/2023 03:32:38
2929,CC_Chg,86,30,59,1.999,0.0533,0.133,0.000007,5460.890,03/11/2023 04:00:38
2945,CC_Chg,86,30,59,1.999,0.0486,1.199,0.000061,5492.890,03/11/2023 04:32:38
2961,CC_Chg,86,30,59,1.999,0.0465,2.266,0.000111,5524.890,03/11/2023 05:04:38
2977,CC_DChg,87,30,60,-1.999,-0.0471,0.200,0.000009,5552.890,03/11/2023 05:32:38
2993,CC_DChg,87,30,60,-1.999,-0.0483,1.266,0.000060,5584.890,03/11/2023 06:04:38
3009,CC_DChg,87,30,60,-1.999,-0.0548,2.332,0.000115,5616.890,03/11/2023 06:36:38
3025,CC_Chg,89,31,61,1.999,0.0539,0.267,0.000014,5644.890,03/11/2023 07:04:38
3041,CC_Chg,89,31,61,1.999,0.0486,1.333,0.000069,5676.890,03/11/2023 07:36:38
3057,CC_Chg,89,31,61,1.999,0.0468,2.399,0.000119,5708.890,03/11/2023 08:08:38
3073,CC_DChg,90,31,62,-1.999,-0.0477,0.400,0.000019,5738.890,03/11/2023 08:38:38
3089,CC_DChg,90,31,62,-1.999,-0.0502,1.466,0.000071,5770.890,03/11/2023 09:10:38
3105,CC_DChg,90,31,62,-1.999,-0.0567,2.532,0.000128,5802.890,03/11/2023 09:42:38
3121,CC_Chg,92,32,63,1.999,0.0536,0.466,0.000025,5830.890,03/11/2023 10:10:38
3137,CC_Chg,92,32,63,1.999,0.0489,1.533,0.000080,5862.890,03/11/2023 10:42:38
3153,CC_Chg,92,32,63,1.999,0.0477,2.599,0.000131,5894.890,03/11/2023 11:14:38
3169,CC_DChg,93,32,64,-1.999,-0.0477,0.533,0.000026,5922.890,03/11/2023 11:42:38
3185,CC_DChg,93,32,64,-1.999,-0.0514,1.599,0.000078,5954.890,03/11/2023 12:14:38
3201,CC_DChg,93,32,64,-1.999,-0.0585,2.665,0.000137,5986.890,03/11/2023 12:46:38
3217,CC_Chg,95,33,65,1.999,0.0548,0.600,0.000034,6014.890,03/11/2023 13:14:38
3233,CC_Chg,95,33,65,1.999,0.0489,1.666,0.000089,6046.890,03/11/2023 13:46:38
3249,CC_Chg,95,33,65,1.999,0.0477,2.732,0.000140,6078.890,03/11/2023 14:18:38
3265,CC_DChg,96,33,66,-1.999,-0.0483,0.666,0.000033,6106.890,03/11/2023 14:46:38
3281,CC_DChg,96,33,66,-1.999,-0.0536,1.732,0.000087,6138.890,03/11/2023 15:18:38
3297,CC_DChg,96,33,66,-1.999,-0.0607,2.799,0.000148,6170.890,03/11/2023 15:50:38
3313,CC_Chg,98,34,67,1.999,0.0539,0.733,0.000041,6198.890,03/11/2023 16:18:38
3329,CC_Chg,98,34,67,1.999,0.0492,1.799,0.000096,6230.890,03/11/2023 16:50:38
3345,CC_Chg,98,34,67,1.999,0.0492,2.865,0.000148,6262.890,03/11/2023 17:22:38
3361,CC_DChg,99,34,68,-1.999,-0.0505,0.800,0.000040,6290.890,03/11/2023 17:50:38
3377,CC_DChg,99,34,68,-1.999,-0.0558,1.866,0.000096,6322.890,03/11/2023 18:22:38
3393,CC_DChg,99,34,68,-1.999,-0.0620,2.932,0.000159,6354.890,03/11/2023 18:54:38
3409,CC_Chg,101,35,69,1.999,0.0548,0.866,0.000050,6382.890,03/11/2023 19:22:38
3425,CC_Chg,101,35,69,1.999,0.0496,1.932,0.000105,6414.890,03/11/2023 19:54:38
3441,CC_Chg,101,35,69,1.999,0.0508,2.998,0.000158,6446.890,03/11/2023 20:26:38
3457,CC_DChg,102,35,70,-1.999,-0.0499,0.933,0.000047,6474.890,03/11/2023 20:54:38
3473,CC_DChg,102,35,70,-1.999,-0.0561,1.999,0.000103,6506.890,03/11/2023 21:26:38
3489,CC_Chg,104,36,71,1.998,0.0449,0.000,0.000000,6536.890,03/11/2023 21:56:38
3505,CC_Chg,104,36,71,1.999,0.0548,0.999,0.000058,6566.890,03/11/2023 22:26:38
3521,CC_Chg,104,36,71,1.999,0.0499,2.066,0.000113,6598.890,03/11/2023 22:58:38
3537,CC_DChg,105,36,72,-1.999,-0.0502,0.067,0.000003,6628.890,03/11/2023 23:28:38
3553,CC_DChg,105,36,72,-1.999,-0.0489,1.133,0.000055,6660.890,03/12/2023 00:00:38
3569,CC_DChg,105,36,72,-1.999,-0.0579,2.199,0.000112,6692.890,03/12/2023 00:32:38
3585,CC_Chg,107,37,73,1.999,0.0598,0.133,0.000008,6720.890,03/12/2023 01:00:38
3601,CC_Chg,107,37,73,1.999,0.0527,1.199,0.000068,6752.890,03/12/2023 01:32:38
3617,CC_Chg,107,37,73,1.999,0.0480,2.266,0.000121,6784.890,03/12/2023 02:04:38
3633,CC_DChg,108,37,74,-1.999,-0.0483,0.200,0.000010,6812.890,03/12/2023 02:32:38
3649,CC_DChg,108,37,74,-1.999,-0.0508,1.266,0.000062,6844.890,03/12/2023 03:04:38
3665,CC_DChg,108,37,74,-1.999,-0.0589,2.332,0.000120,6876.890,03/12/2023 03:36:38
3681,CC_Chg,110,38,75,1.999,0.0592,0.267,0.000016,6904.890,03/12/2023 04:04:38
3697,CC_Chg,110,38,75,1.999,0.0514,1.333,0.000075,6936.890,03/12/2023 04:36:38
3713,CC_Chg,110,38,75,1.999,0.0496,2.399,0.000128,6968.890,03/12/2023 05:08:38
3729,CC_DChg,111,38,76,-1.999,-0.0496,0.333,0.000017,6996.890,03/12/2023 05:36:38
3745,CC_DChg,111,38,76,-1.999,-0.0523,1.399,0.000070,7028.890,03/12/2023 06:08:38
3761,CC_DChg,111,38,76,-1.999,-0.0616,2.465,0.000130,7060.890,03/12/2023 06:40:38
3777,CC_Chg,113,39,77,1.999,0.0585,0.400,0.000023,7088.890,03/12/2023 07:08:38
3793,CC_Chg,113,39,77,1.999,0.0508,1.466,0.000082,7120.890,03/12/2023 07:40:38
3809,CC_Chg,113,39,77,1.999,0.0486,2.532,0.000134,7152.890,03/12/2023 08:12:38
3825,CC_DChg,114,39,78,-1.999,-0.0483,0.466,0.000023,7180.890,03/12/2023 08:40:38
3841,CC_DChg,114,39,78,-1.999,-0.0517,1.533,0.000076,7212.890,03/12/2023 09:12:38
3857,CC_DChg,114,39,78,-1.999,-0.0629,2.599,0.000138,7244.890,03/12/2023 09:44:38
3873,CC_Chg,116,40,79,1.999,0.0582,0.533,0.000032,7272.890,03/12/2023 10:12:38
3889,CC_Chg,116,40,79,1.999,0.0502,1.599,0.000089,7304.890,03/12/2023 10:44:38
3905,CC_Chg,116,40,79,1.999,0.0496,2.665,0.000141,7336.890,03/12/2023 11:16:38
3921,CC_DChg,117,40,80,-1.999,-0.0480,0.600,0.000029,7364.890,03/12/2023 11:44:38
3937,CC_DChg,117,40,80,-1.999,-0.0539,1.666,0.000083,7396.890,03/12/2023 12:16:38
3953,CC_DChg,117,40,80,-1.999,-0.0626,2.732,0.000145,7428.890,03/12/2023 12:48:38
3969,CC_Chg,119,41,81,1.999,0.0585,0.666,0.000040,7456.890,03/12/2023 13:16:38
3985,CC_Chg,119,41,81,1.999,0.0527,1.732,0.000098,7488.890,03/12/2023 13:48:38
4001,CC_Chg,119,41,81,1.999,0.0505,2.799,0.000152,7520.890,03/12/2023 14:20:38
4017,CC_DChg,120,41,82,-1.999,-0.0483,0.800,0.000039,7550.890,03/12/2023 14:50:38
4033,CC_DChg,120,41,82,-1.999,-0.0567,1.866,0.000094,7582.890,03/12/2023 15:22:38
4049,CC_DChg,120,41,82,-1.999,-0.0647,2.932,0.000158,7614.890,03/12/2023 15:54:38
4065,CC_Chg,122,42,83,1.999,0.0551,0.866,0.000051,7642.890,03/12/2023 16:22:38
4081,CC_Chg,122,42,83,1.999,0.0499,1.932,0.000107,7674.890,03/12/2023 16:54:38
4097,CC_Chg,122,42,83,1.999,0.0527,2.998,0.000160,7706.890,03/12/2023 17:26:38
4113,CC_DChg,123,42,84,-1.999,-0.0480,1.000,0.000048,7736.890,03/12/2023 17:56:38
4129,CC_DChg,123,42,84,-1.999,-0.0564,2.066,0.000104,7768.890,03/12/2023 18:28:38
4145,CC_Chg,125,43,85,1.999,0.0548,0.009,0.000000,7797.160,03/12/2023 18:56:54
4161,CC_Chg,125,43,85,1.999,0.0530,1.066,0.000060,7828.890,03/12/2023 19:28:38
4177,CC_Chg,125,43,85,1.999,0.0499,2.132,0.000114,7860.890,03/12/2023 20:00:38
4193,CC_DChg,126,43,86,-1.999,-0.0483,0.133,0.000007,7890.890,03/12/2023 20:30:38
4209,CC_DChg,126,43,86,-1.999,-0.0508,1.199,0.000059,7922.890,03/12/2023 21:02:38
4225,CC_DChg,126,43,86,-1.999,-0.0589,2.266,0.000118,7954.890,03/12/2023 21:34:38
4241,CC_Chg,128,44,87,1.999,0.0589,0.200,0.000012,7982.890,03/12/2023 22:02:38
4257,CC_Chg,128,44,87,1.999,0.0530,1.266,0.000071,8014.890,03/12/2023 22:34:38
4273,CC_Chg,128,44,87,1.999,0.0489,2.332,0.000125,8046.890,03/12/2023 23:06:38
4289,CC_DChg,129,44,88,-1.999,-0.0483,0.333,0.000016,8076.890,03/12/2023 23:36:38
4305,CC_DChg,129,44,88,-1.999,-0.0517,1.399,0.000069,8108.890,03/13/2023 00:08:38
4321,CC_DChg,129,44,88,-1.999,-0.0579,2.465,0.000128,8140.890,03/13/2023 00:40:38
4337,CC_Chg,131,45,89,1.999,0.0582,0.400,0.000023,8168.890,03/13/2023 01:08:38
4353,CC_Chg,131,45,89,1.999,0.0505,1.466,0.000080,8200.890,03/13/2023 01:40:38
4369,CC_Chg,131,45,89,1.999,0.0505,2.532,0.000134,8232.890,03/13/2023 02:12:38
4385,CC_DChg,132,45,90,-1.999,-0.0489,0.533,0.000026,8262.890,03/13/2023 02:42:38
4401,CC_DChg,132,45,90,-1.999,-0.0520,1.599,0.000079,8294.890,03/13/2023 03:14:38
4417,CC_DChg,132,45,90,-1.999,-0.0607,2.665,0.000138,8326.890,03/13/2023 03:46:38
4433,CC_Chg,134,46,91,1.999,0.0554,0.600,0.000035,8354.890,03/13/2023 04:14:38
4449,CC_Chg,134,46,91,1.999,0.0480,1.666,0.000090,8386.890,03/13/2023 04:46:38
4465,CC_Chg,134,46,91,1.999,0.0505,2.732,0.000141,8418.890,03/13/2023 05:18:38
4481,CC_DChg,135,46,92,-1.999,-0.0465,0.733,0.000035,8448.890,03/13/2023 05:48:38
4497,CC_DChg,135,46,92,-1.999,-0.0514,1.799,0.000088,8480.890,03/13/2023 06:20:38
4513,CC_DChg,135,46,92,-1.999,-0.0582,2.865,0.000146,8512.890,03/13/2023 06:52:38
4529,CC_Chg,137,47,93,1.999,0.0505,0.800,0.000043,8540.890,03/13/2023 07:20:38
4545,CC_Chg,137,47,93,1.999,0.0561,1.866,0.000095,8572.890,03/13/2023 07:52:38
4561,CC_Chg,137,47,93,1.999,0.0641,2.932,0.000157,8604.890,03/13/2023 08:24:38
4577,CC_DChg,138,47,94,-1.999,-0.0539,0.933,0.000050,8634.890,03/13/2023 08:54:38
4593,CC_DChg,138,47,94,-1.999,-0.0576,1.999,0.000109,8666.890,03/13/2023 09:26:38
4609,CC_Chg,140,48,95,1.999,0.0440,0.000,0.000000,8696.890,03/13/2023 09:56:38
4625,CC_Chg,140,48,95,1.999,0.0520,1.000,0.000056,8726.890,03/13/2023 10:26:38
4641,CC_Chg,140,48,95,1.999,0.0502,2.066,0.000110,8758.890,03/13/2023 10:58:38
4657,CC_DChg,141,48,96,-1.999,-0.0520,0.067,0.000003,8788.890,03/13/2023 11:28:38
4673,CC_DChg,141,48,96,-1.999,-0.0505,1.133,0.000056,8820.890,03/13/2023 12:00:38
4689,CC_DChg,141,48,96,-1.999,-0.0554,2.199,0.000112,8852.890,03/13/2023 12:32:38
4705,CC_Chg,143,49,97,1.999,0.0573,0.133,0.000007,8880.890,03/13/2023 13:00:38
4721,CC_Chg,143,49,97,1.999,0.0520,1.199,0.000066,8912.890,03/13/2023 13:32:38
4737,CC_Chg,143,49,97,1.999,0.0502,2.266,0.000119,8944.890,03/13/2023 14:04:38
4753,CC_DChg,144,49,98,-1.999,-0.0499,0.267,0.000014,8974.890,03/13/2023 14:34:38
4769,CC_DChg,144,49,98,-1.999,-0.0533,1.333,0.000069,9006.890,03/13/2023 15:06:38
4785,CC_DChg,144,49,98,-1.999,-0.0582,2.399,0.000127,9038.890,03/13/2023 15:38:38
4801,CC_Chg,146,50,99,1.999,0.0579,0.333,0.000019,9066.890,03/13/2023 16:06:38
4817,CC_Chg,146,50,99,1.999,0.0514,1.399,0.000078,9098.890,03/13/2023 16:38:38
4833,CC_Chg,146,50,99,1.999,0.0514,2.465,0.000132,9130.890,03/13/2023 17:10:38
4849,CC_DChg,147,50,100,-1.999,-0.0496,0.466,0.000024,9160.890,03/13/2023 17:40:38
4865,CC_DChg,147,50,100,-1.999,-0.0533,1.533,0.000079,9192.890,03/13/2023 18:12:38
4881,CC_DChg,147,50,100,-1.999,-0.0585,2.599,0.000138,9224.890,03/13/2023 18:44:38
4897,CC_Chg,149,51,101,1.998,0.0551,0.533,0.000030,9252.890,03/13/2023 19:12:38
4913,CC_Chg,149,51,101,1.999,0.0499,1.599,0.000085,9284.890,03/13/2023 19:44:38
4929,CC_Chg,149,51,101,1.999,0.0520,2.665,0.000138,9316.890,03/13/2023 20:16:38
4945,CC_DChg,150,51,102,-1.999,-0.0489,0.666,0.000033,9346.890,03/13/2023 20:46:38
4961,CC_DChg,150,51,102,-1.999,-0.0523,1.732,0.000087,9378.890,03/13/2023 21:18:38
4977,CC_DChg,150,51,102,-1.999,-0.0585,2.799,0.000146,9410.890,03/13/2023 21:50:38
4993,CC_Chg,152,52,103,1.999,0.0520,0.733,0.000040,9438.890,03/13/2023 22:18:38
5009,CC_Chg,152,52,103,1.999,0.0489,1.799,0.000093,9470.890,03/13/2023 22:50:38
5025,CC_Chg,152,52,103,1.999,0.0585,2.865,0.000147,9502.890,03/13/2023 23:22:38
5041,CC_DChg,153,52,104,-1.999,-0.0502,0.866,0.000044,9532.890,03/13/2023 23:52:38
5057,CC_DChg,153,52,104,-1.999,-0.0536,1.932,0.000098,9564.890,03/14/2023 00:24:38
5073,CC_DChg,153,52,104,-1.999,-0.0576,2.999,0.000158,9596.890,03/14/2023 00:56:38
5089,CC_Chg,155,53,105,1.999,0.0505,0.933,0.000048,9624.890,03/14/2023 01:24:38
5105,CC_Chg,155,53,105,1.999,0.0480,1.999,0.000100,9656.890,03/14/2023 01:56:38
5121,CC_DChg,156,53,106,-1.999,-0.0471,0.000,0.000000,9686.890,03/14/2023 02:26:38
5137,CC_DChg,156,53,106,-1.999,-0.0489,1.066,0.000052,9718.890,03/14/2023 02:58:38
5153,CC_DChg,156,53,106,-1.999,-0.0517,2.132,0.000106,9750.890,03/14/2023 03:30:38
5169,CC_Chg,158,54,107,1.999,0.0514,0.067,0.000003,9778.890,03/14/2023 03:58:38
5185,CC_Chg,158,54,107,1.999,0.0489,1.133,0.000057,9810.890,03/14/2023 04:30:38
5201,CC_Chg,158,54,107,1.999,0.0465,2.199,0.000108,9842.890,03/14/2023 05:02:38
5217,CC_DChg,159,54,108,-1.999,-0.0492,0.200,0.000010,9872.890,03/14/2023 05:32:38
5233,CC_DChg,159,54,108,-1.999,-0.0489,1.266,0.000061,9904.890,03/14/2023 06:04:38
5249,CC_DChg,159,54,108,-1.999,-0.0517,2.332,0.000115,9936.890,03/14/2023 06:36:38
5265,CC_Chg,161,55,109,1.999,0.0499,0.267,0.000013,9964.890,03/14/2023 07:04:38
5281,CC_Chg,161,55,109,1.999,0.0461,1.333,0.000064,9996.890,03/14/2023 07:36:38
5297,CC_Chg,161,55,109,1.999,0.0446,2.399,0.000112,10028.890,03/14/2023 08:08:38
5313,CC_DChg,162,55,110,-1.999,-0.0465,0.400,0.000019,10058.890,03/14/2023 08:38:38
5329,CC_DChg,162,55,110,-1.999,-0.0477,1.466,0.000068,10090.890,03/14/2023 09:10:38
5345,CC_DChg,162,55,110,-1.999,-0.0511,2.532,0.000121,10122.890,03/14/2023 09:42:38
5361,CC_Chg,164,56,111,1.999,0.0496,0.466,0.000023,10150.890,03/14/2023 10:10:38
5377,CC_Chg,164,56,111,1.999,0.0440,1.533,0.000073,10182.890,03/14/2023 10:42:38
5393,CC_Chg,164,56,111,1.999,0.0452,2.599,0.000120,10214.890,03/14/2023 11:14:38
5409,CC_DChg,165,56,112,-1.999,-0.0465,0.600,0.000029,10244.890,03/14/2023 11:44:38
5425,CC_DChg,165,56,112,-1.999,-0.0471,1.666,0.000078,10276.890,03/14/2023 12:16:38
5441,CC_DChg,165,56,112,-1.999,-0.0508,2.732,0.000130,10308.890,03/14/2023 12:48:38
5457,CC_Chg,167,57,113,1.999,0.0474,0.666,0.000032,10336.890,03/14/2023 13:16:38
5473,CC_Chg,167,57,113,1.999,0.0440,1.732,0.000081,10368.890,03/14/2023 13:48:38
5489,CC_Chg,167,57,113,1.998,0.0486,2.798,0.000128,10400.890,03/14/2023 14:20:38
5505,CC_DChg,168,57,114,-1.999,-0.0461,0.800,0.000038,10430.890,03/14/2023 14:50:38
5521,CC_DChg,168,57,114,-1.999,-0.0465,1.866,0.000087,10462.890,03/14/2023 15:22:38
5537,CC_DChg,168,57,114,-1.999,-0.0502,2.932,0.000138,10494.890,03/14/2023 15:54:38
5553,CC_Chg,170,58,115,1.999,0.0461,0.866,0.000041,10522.890,03/14/2023 16:22:39
5569,CC_Chg,170,58,115,1.999,0.0430,1.932,0.000088,10554.890,03/14/2023 16:54:39
5585,CC_Chg,170,58,115,1.998,0.0592,2.998,0.000137,10586.890,03/14/2023 17:26:39
5601,CC_DChg,171,58,116,-1.999,-0.0452,0.999,0.000046,10616.890,03/14/2023 17:56:39
5617,CC_DChg,171,58,116,-1.999,-0.0468,2.066,0.000095,10648.890,03/14/2023 18:28:39
5633,CC_Chg,173,59,117,1.999,0.0455,0.013,0.000001,10677.280,03/14/2023 18:57:02
5649,CC_Chg,173,59,117,1.999,0.0452,1.066,0.000050,10708.890,03/14/2023 19:28:39
5665,CC_Chg,173,59,117,1.999,0.0424,2.132,0.000096,10740.890,03/14/2023 20:00:39
5681,CC_DChg,174,59,118,-1.999,-0.0480,0.133,0.000007,10770.890,03/14/2023 20:30:39
5697,CC_DChg,174,59,118,-1.999,-0.0440,1.199,0.000054,10802.890,03/14/2023 21:02:39
5713,CC_DChg,174,59,118,-1.999,-0.0461,2.266,0.000102,10834.890,03/14/2023 21:34:39
5729,CC_Chg,176,60,119,1.999,0.0458,0.200,0.000009,10862.890,03/14/2023 22:02:39
5745,CC_Chg,176,60,119,1.999,0.0427,1.266,0.000057,10894.890,03/14/2023 22:34:39
5761,CC_Chg,176,60,119,1.999,0.0415,2.332,0.000101,10926.890,03/14/2023 23:06:39
5777,CC_DChg,177,60,120,-1.999,-0.0443,0.333,0.000016,10956.890,03/14/2023 23:36:39
5793,CC_DChg,177,60,120,-1.999,-0.0443,1.399,0.000063,10988.890,03/15/2023 00:08:39
5809,CC_DChg,177,60,120,-1.999,-0.0461,2.465,0.000111,11020.890,03/15/2023 00:40:39
5825,CC_Chg,179,61,121,1.999,0.0440,0.400,0.000018,11048.890,03/15/2023 01:08:39
5841,CC_Chg,179,61,121,1.999,0.0418,1.466,0.000064,11080.890,03/15/2023 01:40:39
5857,CC_Chg,179,61,121,1.999,0.0424,2.532,0.000108,11112.890,03/15/2023 02:12:39
5873,CC_DChg,180,61,122,-1.999,-0.0430,0.533,0.000024,11142.890,03/15/2023 02:42:39
5889,CC_DChg,180,61,122,-1.999,-0.0452,1.599,0.000071,11174.890,03/15/2023 03:14:39
5905,CC_DChg,180,61,122,-1.999,-0.0471,2.665,0.000120,11206.890,03/15/2023 03:46:39
5921,CC_Chg,182,62,123,1.999,0.0430,0.600,0.000026,11234.890,03/15/2023 04:14:39
5937,CC_Chg,182,62,123,1.999,0.0403,1.666,0.000071,11266.890,03/15/2023 04:46:39
5953,CC_Chg,182,62,123,1.999,0.0430,2.732,0.000114,11298.890,03/15/2023 05:18:39
5969,CC_DChg,183,62,124,-1.999,-0.0427,0.666,0.000030,11326.890,03/15/2023 05:46:39
5985,CC_DChg,183,62,124,-1.999,-0.0443,1.732,0.000076,11358.890,03/15/2023 06:18:39
6001,CC_DChg,183,62,124,-1.999,-0.0468,2.799,0.000124,11390.890,03/15/2023 06:50:39
6017,CC_Chg,185,63,125,1.999,0.0406,0.733,0.000030,11418.890,03/15/2023 07:18:39
6033,CC_Chg,185,63,125,1.999,0.0378,1.799,0.000072,11450.890,03/15/2023 07:50:39
6049,CC_Chg,185,63,125,1.999,0.0468,2.865,0.000113,11482.890,03/15/2023 08:22:39
6065,CC_DChg,186,63,126,-1.999,-0.0406,0.800,0.000033,11510.890,03/15/2023 08:50:39
6081,CC_DChg,186,63,126,-1.999,-0.0421,1.866,0.000077,11542.890,03/15/2023 09:22:39
6097,CC_DChg,186,63,126,-1.999,-0.0449,2.932,0.000124,11574.890,03/15/2023 09:54:39
6113,CC_Chg,188,64,127,1.999,0.0403,0.866,0.000036,11602.890,03/15/2023 10:22:39
6129,CC_Chg,188,64,127,1.999,0.0381,1.932,0.000078,11634.890,03/15/2023 10:54:39
6145,CC_Chg,188,64,127,1.999,0.0610,2.998,0.000122,11666.890,03/15/2023 11:26:39
6161,CC_DChg,189,64,128,-1.999,-0.0412,0.999,0.000042,11696.890,03/15/2023 11:56:39
6177,CC_DChg,189,64,128,-1.999,-0.0434,2.066,0.000087,11728.890,03/15/2023 12:28:39
6193,CC_Chg,191,65,129,1.999,0.0412,0.021,0.000001,11757.520,03/15/2023 12:57:16
6209,CC_Chg,191,65,129,1.999,0.0403,1.066,0.000044,11788.890,03/15/2023 13:28:39
6225,CC_Chg,191,65,129,1.999,0.0387,2.132,0.000086,11820.890,03/15/2023 14:00:39
6241,CC_DChg,192,65,130,-1.999,-0.0477,0.067,0.000003,11848.890,03/15/2023 14:28:39
6257,CC_DChg,192,65,130,-1.999,-0.0421,1.133,0.000048,11880.890,03/15/2023 15:00:39
6273,CC_DChg,192,65,130,-1.999,-0.0443,2.199,0.000094,11912.890,03/15/2023 15:32:39
6289,CC_Chg,194,66,131,1.999,0.0424,0.133,0.000006,11940.890,03/15/2023 16:00:39
6305,CC_Chg,194,66,131,1.999,0.0403,1.199,0.000050,11972.890,03/15/2023 16:32:39
6321,CC_Chg,194,66,131,1.999,0.0390,2.265,0.000092,12004.890,03/15/2023 17:04:39
6337,CC_DChg,195,66,132,-1.999,-0.0437,0.200,0.000009,12032.890,03/15/2023 17:32:39
6353,CC_DChg,195,66,132,-1.999,-0.0424,1.266,0.000054,12064.890,03/15/2023 18:04:39
6369,CC_DChg,195,66,132,-1.999,-0.0449,2.332,0.000101,12096.890,03/15/2023 18:36:39
6385,CC_Chg,197,67,133,1.999,0.0424,0.267,0.000011,12124.890,03/15/2023 19:04:39
6401,CC_Chg,197,67,133,1.999,0.0396,1.333,0.000055,12156.890,03/15/2023 19:36:39
6417,CC_Chg,197,67,133,1.999,0.0390,2.399,0.000096,12188.890,03/15/2023 20:08:39
6433,CC_DChg,198,67,134,-1.999,-0.0418,0.333,0.000015,12216.890,03/15/2023 20:36:39
6449,CC_DChg,198,67,134,-1.999,-0.0412,1.399,0.000058,12248.890,03/15/2023 21:08:39
6465,CC_DChg,198,67,134,-1.999,-0.0434,2.465,0.000104,12280.890,03/15/2023 21:40:39
6481,CC_Chg,200,68,135,1.999,0.0415,0.400,0.000017,12308.890,03/15/2023 22:08:39
6497,CC_Chg,200,68,135,1.999,0.0384,1.466,0.000059,12340.890,03/15/2023 22:40:39
6513,CC_Chg,200,68,135,1.999,0.0384,2.532,0.000100,12372.890,03/15/2023 23:12:39
6529,CC_DChg,201,68,136,-1.999,-0.0409,0.533,0.000023,12402.890,03/15/2023 23:42:39
6545,CC_DChg,201,68,136,-1.999,-0.0415,1.599,0.000066,12434.890,03/16/2023 00:14:39
6561,CC_DChg,201,68,136,-1.999,-0.0434,2.665,0.000112,12466.890,03/16/2023 00:46:39
6577,CC_Chg,203,69,137,1.999,0.0409,0.600,0.000025,12494.890,03/16/2023 01:14:39
6593,CC_Chg,203,69,137,1.999,0.0387,1.666,0.000067,12526.890,03/16/2023 01:46:39
6609,CC_Chg,203,69,137,1.999,0.0418,2.732,0.000109,12558.890,03/16/2023 02:18:39
6625,CC_DChg,204,69,138,-1.999,-0.0415,0.666,0.000029,12586.890,03/16/2023 02:46:39
6641,CC_DChg,204,69,138,-1.999,-0.0427,1.732,0.000074,12618.890,03/16/2023 03:18:39
6657,CC_DChg,204,69,138,-1.999,-0.0449,2.799,0.000120,12650.890,03/16/2023 03:50:39
6673,CC_Chg,206,70,139,1.999,0.0412,0.733,0.000030,12678.890,03/16/2023 04:18:39
6689,CC_Chg,206,70,139,1.999,0.0390,1.799,0.000073,12710.890,03/16/2023 04:50:39
6705,CC_Chg,206,70,139,1.999,0.0471,2.865,0.000116,12742.890,03/16/2023 05:22:39
6721,CC_DChg,207,70,140,-1.999,-0.0421,0.866,0.000037,12772.890,03/16/2023 05:52:39
6737,CC_DChg,207,70,140,-1.999,-0.0437,1.932,0.000083,12804.890,03/16/2023 06:24:39
6753,CC_DChg,207,70,140,-1.999,-0.0461,2.999,0.000131,12836.890,03/16/2023 06:56:39
6769,CC_Chg,209,71,141,1.999,0.0409,0.933,0.000039,12864.890,03/16/2023 07:24:39
6785,CC_Chg,209,71,141,1.999,0.0393,1.999,0.000081,12896.890,03/16/2023 07:56:39
6801,CC_Chg,209,71,141,1.999,0.0657,2.998,0.000125,12926.890,03/16/2023 08:26:39
6817,CC_DChg,210,71,142,-1.999,-0.0421,1.000,0.000043,12956.890,03/16/2023 08:56:39
6833,CC_DChg,210,71,142,-1.999,-0.0437,2.066,0.000089,12988.890,03/16/2023 09:28:39
6849,CC_Chg,212,72,143,1.999,0.0421,0.028,0.000001,13017.750,03/16/2023 09:57:30
6865,CC_Chg,212,72,143,1.999,0.0412,1.066,0.000045,13048.890,03/16/2023 10:28:39
6881,CC_Chg,212,72,143,1.999,0.0403,2.132,0.000088,13080.890,03/16/2023 11:00:39
6897,CC_DChg,213,72,144,-1.999,-0.0489,0.067,0.000003,13108.890,03/16/2023 11:28:39
6913,CC_DChg,213,72,144,-1.999,-0.0424,1.133,0.000049,13140.890,03/16/2023 12:00:39
6929,CC_DChg,213,72,144,-1.999,-0.0443,2.199,0.000095,13172.890,03/16/2023 12:32:39
6945,CC_Chg,215,73,145,1.999,0.0430,0.133,0.000006,13200.890,03/16/2023 13:00:39
6961,CC_Chg,215,73,145,1.999,0.0409,1.199,0.000051,13232.890,03/16/2023 13:32:39
6977,CC_Chg,215,73,145,1.999,0.0399,2.266,0.000093,13264.890,03/16/2023 14:04:39
6993,CC_DChg,216,73,146,-1.999,-0.0443,0.200,0.000009,13292.890,03/16/2023 14:32:39
7009,CC_DChg,216,73,146,-1.999,-0.0421,1.266,0.000054,13324.890,03/16/2023 15:04:39
7025,CC_DChg,216,73,146,-1.999,-0.0443,2.332,0.000100,13356.890,03/16/2023 15:36:39
7041,CC_Chg,218,74,147,1.999,0.0427,0.267,0.000011,13384.890,03/16/2023 16:04:39
7057,CC_Chg,218,74,147,1.999,0.0403,1.333,0.000056,13416.890,03/16/2023 16:36:39
7073,CC_Chg,218,74,147,1.999,0.0403,2.399,0.000098,13448.890,03/16/2023 17:08:39
7089,CC_DChg,219,74,148,-1.999,-0.0430,0.333,0.000015,13476.890,03/16/2023 17:36:39
7105,CC_DChg,219,74,148,-1.999,-0.0424,1.399,0.000060,13508.890,03/16/2023 18:08:39
7121,CC_DChg,219,74,148,-1.999,-0.0440,2.465,0.000107,13540.890,03/16/2023 18:40:39
7137,CC_Chg,221,75,149,1.999,0.0421,0.400,0.000017,13568.890,03/16/2023 19:08:39
7153,CC_Chg,221,75,149,1.999,0.0396,1.466,0.000060,13600.890,03/16/2023 19:40:39
7169,CC_Chg,221,75,149,1.999,0.0399,2.532,0.000102,13632.890,03/16/2023 20:12:39
7185,CC_DChg,222,75,150,-1.999,-0.0421,0.466,0.000021,13660.890,03/16/2023 20:40:39
7201,CC_DChg,222,75,150,-1.999,-0.0421,1.533,0.000066,13692.890,03/16/2023 21:12:39
7217,CC_DChg,222,75,150,-1.999,-0.0440,2.599,0.000111,13724.890,03/16/2023 21:44:39
7233,CC_Chg,224,76,151,1.999,0.0418,0.533,0.000022,13752.890,03/16/2023 22:12:39
7249,CC_Chg,224,76,151,1.999,0.0393,1.599,0.000065,13784.890,03/16/2023 22:44:39
7265,CC_Chg,224,76,151,1.999,0.0412,2.665,0.000107,13816.890,03/16/2023 23:16:39
7281,CC_DChg,225,76,152,-1.999,-0.0421,0.600,0.000027,13844.890,03/16/2023 23:44:39
7297,CC_DChg,225,76,152,-1.999,-0.0424,1.666,0.000072,13876.890,03/17/2023 00:16:39
7313,CC_DChg,225,76,152,-1.999,-0.0443,2.732,0.000118,13908.890,03/17/2023 00:48:39
7329,CC_Chg,227,77,153,1.999,0.0415,0.666,0.000028,13936.890,03/17/2023 01:16:39
7345,CC_Chg,227,77,153,1.999,0.0390,1.732,0.000070,13968.890,03/17/2023 01:48:39
7361,CC_Chg,227,77,153,1.999,0.0418,2.799,0.000113,14000.890,03/17/2023 02:20:39
7377,CC_DChg,228,77,154,-1.999,-0.0415,0.733,0.000032,14028.890,03/17/2023 02:48:39
7393,CC_DChg,228,77,154,-1.999,-0.0427,1.799,0.000077,14060.890,03/17/2023 03:20:39
7409,CC_DChg,228,77,154,-1.999,-0.0443,2.865,0.000123,14092.890,03/17/2023 03:52:39
7425,CC_Chg,230,78,155,1.999,0.0409,0.800,0.000033,14120.890,03/17/2023 04:20:39
7441,CC_Chg,230,78,155,1.999,0.0384,1.866,0.000075,14152.890,03/17/2023 04:52:39
7457,CC_Chg,230,78,155,1.999,0.0502,2.932,0.000117,14184.890,03/17/2023 05:24:39
7473,CC_DChg,231,78,156,-1.999,-0.0412,0.866,0.000037,14212.890,03/17/2023 05:52:39
7489,CC_DChg,231,78,156,-1.999,-0.0421,1.932,0.000081,14244.890,03/17/2023 06:24:39
7505,CC_DChg,231,78,156,-1.999,-0.0434,2.999,0.000126,14276.890,03/17/2023 06:56:39
7521,CC_Chg,233,79,157,1.999,0.0393,0.933,0.000037,14304.890,03/17/2023 07:24:39
7537,CC_Chg,233,79,157,1.999,0.0378,1.999,0.000078,14336.890,03/17/2023 07:56:39
7553,CC_DChg,234,79,158,-1.999,-0.0440,0.000,0.000000,14366.890,03/17/2023 08:26:39
7569,CC_DChg,234,79,158,-1.999,-0.0406,1.066,0.000044,14398.890,03/17/2023 08:58:39
7585,CC_DChg,234,79,158,-1.999,-0.0415,2.132,0.000088,14430.890,03/17/2023 09:30:39
7601,CC_Chg,236,80,159,1.999,0.0393,0.067,0.000003,14458.890,03/17/2023 09:58:39
7617,CC_Chg,236,80,159,1.999,0.0381,1.133,0.000044,14490.890,03/17/2023 10:30:39
7633,CC_Chg,236,80,159,1.999,0.0362,2.199,0.000084,14522.890,03/17/2023 11:02:39
7649,CC_DChg,237,80,160,-1.999,-0.0412,0.200,0.000009,14552.890,03/17/2023 11:32:39
7665,CC_DChg,237,80,160,-1.999,-0.0403,1.266,0.000051,14584.890,03/17/2023 12:04:39
7681,CC_DChg,237,80,160,-1.999,-0.0412,2.332,0.000094,14616.890,03/17/2023 12:36:39
7697,CC_Chg,239,81,161,1.999,0.0390,0.333,0.000013,14646.890,03/17/2023 13:06:39
7713,CC_Chg,239,81,161,1.999,0.0362,1.399,0.000053,14678.890,03/17/2023 13:38:39
7729,CC_Chg,239,81,161,1.999,0.0359,2.465,0.000091,14710.890,03/17/2023 14:10:39
7745,CC_DChg,240,81,162,-1.999,-0.0399,0.466,0.000020,14740.890,03/17/2023 14:40:39
7761,CC_DChg,240,81,162,-1.999,-0.0403,1.533,0.000062,14772.890,03/17/2023 15:12:39
7777,CC_DChg,240,81,162,-1.999,-0.0418,2.599,0.000106,14804.890,03/17/2023 15:44:39
7793,CC_Chg,242,82,163,1.999,0.0387,0.600,0.000023,14834.890,03/17/2023 16:14:39
7809,CC_Chg,242,82,163,1.999,0.0359,1.666,0.000063,14866.890,03/17/2023 16:46:39
7825,CC_Chg,242,82,163,1.999,0.0378,2.732,0.000102,14898.890,03/17/2023 17:18:39
7841,CC_DChg,243,82,164,-1.999,-0.0396,0.733,0.000030,14928.890,03/17/2023 17:48:39
7857,CC_DChg,243,82,164,-1.999,-0.0406,1.799,0.000073,14960.890,03/17/2023 18:20:39
7873,CC_DChg,243,82,164,-1.999,-0.0421,2.865,0.000117,14992.890,03/17/2023 18:52:39
7889,CC_Chg,245,83,165,1.999,0.0384,0.866,0.000034,15022.890,03/17/2023 19:22:39
7905,CC_Chg,245,83,165,1.999,0.0359,1.932,0.000073,15054.890,03/17/2023 19:54:39
7921,CC_Chg,245,83,165,1.999,0.0551,2.998,0.000113,15086.890,03/17/2023 20:26:39
7937,CC_DChg,246,83,166,-1.999,-0.0387,1.000,0.000040,15116.890,03/17/2023 20:56:39
7953,CC_DChg,246,83,166,-1.999,-0.0403,2.066,0.000082,15148.890,03/17/2023 21:28:39
7969,CC_Chg,248,84,167,1.999,0.0384,0.067,0.000003,15178.890,03/17/2023 21:58:39
7985,CC_Chg,248,84,167,1.999,0.0368,1.133,0.000043,15210.890,03/17/2023 22:30:39
8001,CC_Chg,248,84,167,1.999,0.0350,2.199,0.000081,15242.890,03/17/2023 23:02:39
8017,CC_DChg,249,84,168,-1.999,-0.0406,0.200,0.000009,15272.890,03/17/2023 23:32:39
8033,CC_DChg,249,84,168,-1.999,-0.0384,1.266,0.000050,15304.890,03/18/2023 00:04:39
8049,CC_DChg,249,84,168,-1.999,-0.0403,2.332,0.000092,15336.890,03/18/2023 00:36:39
8065,CC_Chg,251,85,169,1.999,0.0381,0.333,0.000013,15366.890,03/18/2023 01:06:39
8081,CC_Chg,251,85,169,1.999,0.0350,1.399,0.000052,15398.890,03/18/2023 01:38:39
8097,CC_Chg,251,85,169,1.999,0.0356,2.465,0.000089,15430.890,03/18/2023 02:10:39
8113,CC_DChg,252,85,170,-1.999,-0.0384,0.466,0.000019,15460.890,03/18/2023 02:40:39
8129,CC_DChg,252,85,170,-1.999,-0.0387,1.533,0.000060,15492.890,03/18/2023 03:12:39
8145,CC_DChg,252,85,170,-1.999,-0.0403,2.599,0.000102,15524.890,03/18/2023 03:44:39
8161,CC_Chg,254,86,171,1.999,0.0368,0.600,0.000022,15554.890,03/18/2023 04:14:40
8177,CC_Chg,254,86,171,1.999,0.0347,1.666,0.000060,15586.890,03/18/2023 04:46:40
8193,CC_Chg,254,86,171,1.999,0.0372,2.732,0.000098,15618.890,03/18/2023 05:18:40
8209,CC_DChg,255,86,172,-1.999,-0.0378,0.733,0.000029,15648.890,03/18/2023 05:48:40
8225,CC_DChg,255,86,172,-1.999,-0.0387,1.799,0.000069,15680.890,03/18/2023 06:20:40
8241,CC_DChg,255,86,172,-1.999,-0.0399,2.865,0.000111,15712.890,03/18/2023 06:52:40
8257,CC_Chg,1,87,173,1.999,0.0356,0.866,0.000032,15742.890,03/18/2023 07:22:40
8273,CC_Chg,1,87,173,1.999,0.0344,1.932,0.000069,15774.890,03/18/2023 07:54:40
8289,CC_Chg,1,87,173,1.999,0.0527,2.999,0.000108,15806.890,03/18/2023 08:26:40
8305,CC_DChg,2,87,174,-1.999,-0.0378,1.000,0.000039,15836.890,03/18/2023 08:56:40
8321,CC_DChg,2,87,174,-1.999,-0.0390,2.066,0.000079,15868.890,03/18/2023 09:28:40
8337,CC_Chg,4,88,175,1.999,0.0368,0.067,0.000002,15898.890,03/18/2023 09:58:40
8353,CC_Chg,4,88,175,1.999,0.0350,1.133,0.000041,15930.890,03/18/2023 10:30:40
8369,CC_Chg,4,88,175,1.999,0.0344,2.199,0.000078,15962.890,03/18/2023 11:02:40
8385,CC_DChg,5,88,176,-1.999,-0.0403,0.200,0.000009,15992.890,03/18/2023 11:32:40
8401,CC_DChg,5,88,176,-1.999,-0.0381,1.266,0.000049,16024.890,03/18/2023 12:04:40
8417,CC_DChg,5,88,176,-1.999,-0.0390,2.332,0.000091,16056.890,03/18/2023 12:36:40
8433,CC_Chg,7,89,177,1.999,0.0362,0.333,0.000012,16086.890,03/18/2023 13:06:40
8449,CC_Chg,7,89,177,1.999,0.0347,1.399,0.000050,16118.890,03/18/2023 13:38:40
8465,CC_Chg,7,89,177,1.999,0.0350,2.465,0.000087,16150.890,03/18/2023 14:10:40
8481,CC_DChg,8,89,178,-1.999,-0.0387,0.466,0.000019,16180.890,03/18/2023 14:40:40
8497,CC_DChg,8,89,178,-1.999,-0.0390,1.533,0.000060,16212.890,03/18/2023 15:12:40
8513,CC_DChg,8,89,178,-1.999,-0.0399,2.599,0.000102,16244.890,03/18/2023 15:44:40
8529,CC_Chg,10,90,179,1.999,0.0368,0.533,0.000020,16272.890,03/18/2023 16:12:40
8545,CC_Chg,10,90,179,1.998,0.0350,1.599,0.000058,16304.890,03/18/2023 16:44:40
8561,CC_Chg,10,90,179,1.998,0.0362,2.665,0.000095,16336.890,03/18/2023 17:16:40
8577,CC_DChg,11,90,180,-1.999,-0.0387,0.666,0.000027,16366.890,03/18/2023 17:46:40
8593,CC_DChg,11,90,180,-1.999,-0.0390,1.732,0.000068,16398.890,03/18/2023 18:18:40
8609,CC_DChg,11,90,180,-1.999,-0.0406,2.799,0.000111,16430.890,03/18/2023 18:50:40
8625,CC_Chg,13,91,181,1.998,0.0368,0.733,0.000027,16458.890,03/18/2023 19:18:40
8641,CC_Chg,13,91,181,1.999,0.0347,1.798,0.000065,16490.890,03/18/2023 19:50:40
8657,CC_Chg,13,91,181,1.999,0.0390,2.864,0.000103,16522.890,03/18/2023 20:22:40
8673,CC_DChg,14,91,182,-1.999,-0.0378,0.866,0.000034,16552.890,03/18/2023 20:52:40
8689,CC_DChg,14,91,182,-1.999,-0.0384,1.932,0.000075,16584.890,03/18/2023 21:24:40
8705,CC_DChg,14,91,182,-1.999,-0.0399,2.999,0.000116,16616.890,03/18/2023 21:56:40
8721,CC_Chg,16,92,183,1.999,0.0353,0.999,0.000036,16646.890,03/18/2023 22:26:40
8737,CC_Chg,16,92,183,1.999,0.0347,2.066,0.000073,16678.890,03/18/2023 22:58:40
8753,CC_DChg,17,92,184,-1.999,-0.0437,0.067,0.000003,16708.890,03/18/2023 23:28:40
8769,CC_DChg,17,92,184,-1.999,-0.0381,1.133,0.000044,16740.890,03/19/2023 00:00:40
8785,CC_DChg,17,92,184,-1.999,-0.0390,2.199,0.000085,16772.890,03/19/2023 00:32:40
8801,CC_Chg,19,93,185,1.999,0.0372,0.133,0.000005,16800.890,03/19/2023 01:00:40
8817,CC_Chg,19,93,185,1.999,0.0372,1.199,0.000045,16832.890,03/19/2023 01:32:40
8833,CC_Chg,19,93,185,1.999,0.0368,2.266,0.000084,16864.890,03/19/2023 02:04:40
8849,CC_DChg,20,93,186,-1.999,-0.0406,0.267,0.000012,16894.890,03/19/2023 02:34:40
8865,CC_DChg,20,93,186,-1.999,-0.0387,1.333,0.000053,16926.890,03/19/2023 03:06:40
8881,CC_DChg,20,93,186,-1.999,-0.0396,2.399,0.000095,16958.890,03/19/2023 03:38:40
8897,CC_Chg,22,94,187,1.999,0.0372,0.333,0.000012,16986.890,03/19/2023 04:06:40
8913,CC_Chg,22,94,187,1.999,0.0353,1.399,0.000051,17018.890,03/19/2023 04:38:40
8929,CC_Chg,22,94,187,1.999,0.0353,2.465,0.000088,17050.890,03/19/2023 05:10:40
8945,CC_DChg,23,94,188,-1.999,-0.0387,0.466,0.000019,17080.890,03/19/2023 05:40:40
8961,CC_DChg,23,94,188,-1.999,-0.0390,1.533,0.000060,17112.890,03/19/2023 06:12:40
8977,CC_DChg,23,94,188,-1.999,-0.0396,2.599,0.000102,17144.890,03/19/2023 06:44:40
8993,CC_Chg,25,95,189,1.999,0.0362,0.600,0.000022,17174.890,03/19/2023 07:14:40
9009,CC_Chg,25,95,189,1.999,0.0347,1.666,0.000060,17206.890,03/19/2023 07:46:40
9025,CC_Chg,25,95,189,1.999,0.0359,2.732,0.000097,17238.890,03/19/2023 08:18:40
9041,CC_DChg,26,95,190,-1.999,-0.0381,0.733,0.000029,17268.890,03/19/2023 08:48:40
9057,CC_DChg,26,95,190,-1.999,-0.0387,1.799,0.000070,17300.890,03/19/2023 09:20:40
9073,CC_DChg,26,95,190,-1.999,-0.0396,2.865,0.000112,17332.890,03/19/2023 09:52:40
9089,CC_Chg,28,96,191,1.999,0.0359,0.866,0.000031,17362.890,03/19/2023 10:22:40
9105,CC_Chg,28,96,191,1.999,0.0347,1.932,0.000069,17394.890,03/19/2023 10:54:40
9121,CC_Chg,28,96,191,1.999,0.0536,2.998,0.000108,17426.890,03/19/2023 11:26:40
9137,CC_DChg,29,96,192,-1.999,-0.0384,1.000,0.000040,17456.890,03/19/2023 11:56:40
9153,CC_DChg,29,96,192,-1.999,-0.0390,2.066,0.000081,17488.890,03/19/2023 12:28:40
9169,CC_Chg,31,97,193,1.999,0.0368,0.067,0.000002,17518.890,03/19/2023 12:58:40
9185,CC_Chg,31,97,193,1.999,0.0356,1.133,0.000041,17550.890,03/19/2023 13:30:40
9201,CC_Chg,31,97,193,1.999,0.0350,2.199,0.000078,17582.890,03/19/2023 14:02:40
9217,CC_DChg,32,97,194,-1.999,-0.0406,0.200,0.000009,17612.890,03/19/2023 14:32:40
9233,CC_DChg,32,97,194,-1.999,-0.0387,1.266,0.000050,17644.890,03/19/2023 15:04:40
9249,CC_DChg,32,97,194,-1.999,-0.0396,2.332,0.000092,17676.890,03/19/2023 15:36:40
9265,CC_Chg,34,98,195,1.999,0.0368,0.333,0.000012,17706.890,03/19/2023 16:06:40
9281,CC_Chg,34,98,195,1.998,0.0350,1.399,0.000050,17738.890,03/19/2023 16:38:40
9297,CC_Chg,34,98,195,1.999,0.0353,2.465,0.000087,17770.890,03/19/2023 17:10:40
9313,CC_DChg,35,98,196,-1.999,-0.0390,0.466,0.000019,17800.890,03/19/2023 17:40:40
9329,CC_DChg,35,98,196,-1.999,-0.0390,1.533,0.000060,17832.890,03/19/2023 18:12:40
9345,CC_DChg,35,98,196,-1.999,-0.0399,2.599,0.000102,17864.890,03/19/2023 18:44:40
9361,CC_Chg,37,99,197,1.998,0.0359,0.599,0.000022,17894.890,03/19/2023 19:14:40
9377,CC_Chg,37,99,197,1.999,0.0347,1.665,0.000059,17926.890,03/19/2023 19:46:40
9393,CC_Chg,37,99,197,1.999,0.0356,2.731,0.000096,17958.890,03/19/2023 20:18:40
9409,CC_DChg,38,99,198,-1.999,-0.0381,0.733,0.000029,17988.890,03/19/2023 20:48:40
9425,CC_DChg,38,99,198,-1.999,-0.0384,1.799,0.000070,18020.890,03/19/2023 21:20:40
9441,CC_DChg,38,99,198,-1.999,-0.0393,2.865,0.000111,18052.890,03/19/2023 21:52:40
9457,CC_Chg,40,100,199,1.999,0.0356,0.866,0.000031,18082.890,03/19/2023 22:22:40
9473,CC_Chg,40,100,199,1.999,0.0344,1.932,0.000068,18114.890,03/19/2023 22:54:40
9489,CC_Chg,40,100,199,1.999,0.0477,2.998,0.000106,18146.890,03/19/2023 23:26:40
9505,CC_DChg,41,100,200,-1.999,-0.0378,0.999,0.000039,18176.890,03/19/2023 23:56:40
9521,CC_DChg,41,100,200,-1.999,-0.0384,2.066,0.000079,18208.890,03/20/2023 00:28:40
9537,CC_Chg,43,101,201,1.999,0.0356,0.067,0.000002,18238.890,03/20/2023 00:58:40
9553,CC_Chg,43,101,201,1.999,0.0347,1.133,0.000040,18270.890,03/20/2023 01:30:40
9569,CC_Chg,43,101,201,1.999,0.0337,2.199,0.000076,18302.890,03/20/2023 02:02:40
9585,CC_DChg,44,101,202,-1.999,-0.0393,0.200,0.000008,18332.890,03/20/2023 02:32:40
9601,CC_DChg,44,101,202,-1.999,-0.0378,1.266,0.000048,18364.890,03/20/2023 03:04:40
9617,CC_DChg,44,101,202,-1.999,-0.0387,2.332,0.000089,18396.890,03/20/2023 03:36:40
9633,CC_Chg,46,102,203,1.999,0.0359,0.333,0.000012,18426.890,03/20/2023 04:06:40
9649,CC_Chg,46,102,203,1.999,0.0347,1.399,0.000050,18458.890,03/20/2023 04:38:40
9665,CC_Chg,46,102,203,1.999,0.0347,2.465,0.000086,18490.890,03/20/2023 05:10:40
9681,CC_DChg,47,102,204,-1.999,-0.0384,0.466,0.000019,18520.890,03/20/2023 05:40:40
9697,CC_DChg,47,102,204,-1.999,-0.0384,1.533,0.000059,18552.890,03/20/2023 06:12:40
9713,CC_DChg,47,102,204,-1.999,-0.0390,2.599,0.000101,18584.890,03/20/2023 06:44:40
9729,CC_Chg,49,103,205,1.999,0.0350,0.600,0.000021,18614.890,03/20/2023 07:14:40
9745,CC_Chg,49,103,205,1.999,0.0337,1.666,0.000058,18646.890,03/20/2023 07:46:40
9761,CC_Chg,49,103,205,1.999,0.0347,2.732,0.000093,18678.890,03/20/2023 08:18:40
9777,CC_Chg,49,103,205,1.999,0.0796,3.798,0.000154,18710.890,03/20/2023 08:50:40
9793,CC_Chg,49,103,205,1.999,0.1757,4.522,0.000233,18732.620,03/20/2023 09:12:24
9809,CC_Chg,49,103,205,1.999,0.2656,4.699,0.000269,18737.920,03/20/2023 09:17:42
9825,CC_Chg,49,103,205,1.999,0.3456,4.798,0.000298,18740.890,03/20/2023 09:20:40
9841,CC_Chg,49,103,205,1.999,0.3320,4.821,0.000306,18741.610,03/20/2023 09:21:23
9857,CC_Chg,49,103,205,1.999,0.3652,4.845,0.000314,18742.300,03/20/2023 09:22:05
9873,CC_Chg,49,103,205,1.999,0.4064,4.866,0.000323,18742.950,03/20/2023 09:22:44
9885,CC_Chg,49,103,205,1.999,0.5000,4.893,0.000335,18743.740,03/20/2023 09:23:31